date	time	group	subject	blockcode	blocknum	trialcode	trialnum	response	correct	latency	stimulusnumber1	stimulusitem1	expressions.da	expressions.db	expressions.d	expressions.percentcorrect
011318	17:14:41	1	1	targetcompatiblepractice	1	targetBright	2	23	1	731	6	忙碌			0	0
011318	17:14:41	1	1	targetcompatiblepractice	1	targetAleft	3	18	1	651	6	时尚			0	0
011318	17:14:41	1	1	targetcompatiblepractice	1	targetBright	4	23	1	593	4	无聊			0	0
011318	17:14:41	1	1	targetcompatiblepractice	1	targetBright	5	23	1	528	5	过时			0	0
011318	17:14:41	1	1	targetcompatiblepractice	1	targetAleft	6	18	1	524	3	浪漫			0	0
011318	17:14:41	1	1	targetcompatiblepractice	1	targetBright	7	23	1	478	3	枯燥			0	0
011318	17:14:41	1	1	targetcompatiblepractice	1	targetBright	8	23	1	460	2	乏味			0	0
011318	17:14:41	1	1	targetcompatiblepractice	1	targetAleft	9	18	1	564	2	热闹			0	0
011318	17:14:41	1	1	targetcompatiblepractice	1	targetAleft	10	18	0	1052	5	悠闲			0	0
011318	17:14:41	1	1	targetcompatiblepractice	1	targetAleft	11	18	1	357	4	欢乐			0	0
011318	17:14:41	1	1	targetcompatiblepractice	1	targetBright	12	23	1	521	1	平淡			0	0
011318	17:14:41	1	1	targetcompatiblepractice	1	targetBright	13	23	1	618	2	乏味			0	0
011318	17:14:41	1	1	targetcompatiblepractice	1	targetAleft	14	18	1	649	1	温馨			0	0
011318	17:14:41	1	1	targetcompatiblepractice	1	targetAleft	15	18	1	657	2	热闹			0	0
011318	17:14:41	1	1	targetcompatiblepractice	1	targetBright	16	23	1	571	5	过时			0	0
011318	17:14:41	1	1	targetcompatiblepractice	1	targetBright	17	23	0	993	6	忙碌			0	0
011318	17:14:41	1	1	targetcompatiblepractice	1	targetAleft	18	18	1	470	5	悠闲			0	0
011318	17:14:41	1	1	targetcompatiblepractice	1	targetBright	19	23	1	214	4	无聊			0	0
011318	17:14:41	1	1	targetcompatiblepractice	1	targetAleft	20	18	1	597	6	时尚			0	0
011318	17:14:41	1	1	targetcompatiblepractice	1	targetAleft	21	18	1	560	1	温馨			0	0
011318	17:14:41	1	1	attributepractice	2	attributeB	2	23	1	417	3	万圣节			0	0
011318	17:14:41	1	1	attributepractice	2	attributeB	3	23	1	592	5	愚人节			0	0
011318	17:14:41	1	1	attributepractice	2	attributeA	4	18	1	726	5	中秋节			0	0
011318	17:14:41	1	1	attributepractice	2	attributeB	5	23	1	353	4	情人节			0	0
011318	17:14:41	1	1	attributepractice	2	attributeA	6	18	1	545	3	端午节			0	0
011318	17:14:41	1	1	attributepractice	2	attributeB	7	23	1	472	1	感恩节			0	0
011318	17:14:41	1	1	attributepractice	2	attributeB	8	23	1	532	2	圣诞节			0	0
011318	17:14:41	1	1	attributepractice	2	attributeB	9	23	1	376	6	复活节			0	0
011318	17:14:41	1	1	attributepractice	2	attributeA	10	18	1	595	1	春节			0	0
011318	17:14:41	1	1	attributepractice	2	attributeA	11	18	1	395	6	重阳节			0	0
011318	17:14:41	1	1	attributepractice	2	attributeA	12	18	1	534	2	清明节			0	0
011318	17:14:41	1	1	attributepractice	2	attributeA	13	18	1	642	4	七夕节			0	0
011318	17:14:41	1	1	attributepractice	2	attributeB	14	23	0	821	5	愚人节			0	0
011318	17:14:41	1	1	attributepractice	2	attributeA	15	18	1	464	3	端午节			0	0
011318	17:14:41	1	1	attributepractice	2	attributeA	16	18	1	682	1	春节			0	0
011318	17:14:41	1	1	attributepractice	2	attributeA	17	18	1	421	5	中秋节			0	0
011318	17:14:41	1	1	attributepractice	2	attributeA	18	18	1	334	4	七夕节			0	0
011318	17:14:41	1	1	attributepractice	2	attributeB	19	23	1	515	2	圣诞节			0	0
011318	17:14:41	1	1	attributepractice	2	attributeB	20	23	1	607	3	万圣节			0	0
011318	17:14:41	1	1	attributepractice	2	attributeB	21	23	1	425	4	情人节			0	0
011318	17:14:41	1	1	compatibletest1	3	attributeA	2	18	1	531	2	清明节			0	100
011318	17:14:41	1	1	compatibletest1	3	targetAleft	3	18	1	564	3	浪漫	-1.4116516558910059409		-0.7058258279455029705	100
011318	17:14:41	1	1	compatibletest1	3	attributeB	4	23	1	483	1	感恩节	-1.6200920373285563336		-0.8100460186642781668	100
011318	17:14:41	1	1	compatibletest1	3	targetBright	5	23	1	353	1	平淡	-1.6435784684930101474		-0.8217892342465050737	100
011318	17:14:41	1	1	compatibletest1	3	attributeB	6	23	1	503	6	复活节	-1.7149176530235721305		-0.8574588265117860653	100
011318	17:14:41	1	1	compatibletest1	3	targetBright	7	23	1	674	3	枯燥	-1.7119276475006526272		-0.8559638237503263136	100
011318	17:14:41	1	1	compatibletest1	3	attributeB	8	23	1	639	3	万圣节	-1.7378027539416600611		-0.8689013769708300305	100
011318	17:14:41	1	1	compatibletest1	3	targetAleft	9	18	1	414	4	欢乐	-1.7451768966433345298		-0.8725884483216672649	100
011318	17:14:41	1	1	compatibletest1	3	attributeA	10	18	1	570	6	重阳节	-1.7711916059335615081		-0.8855958029667807541	100
011318	17:14:41	1	1	compatibletest1	3	targetBright	11	23	1	655	1	平淡	-1.7808731956942243091		-0.8904365978471121545	100
011318	17:14:41	1	1	compatibletest1	3	attributeB	12	23	1	510	6	复活节	-1.7978986648046910712		-0.8989493324023455356	100
011318	17:14:41	1	1	compatibletest1	3	targetBright	13	23	1	527	6	忙碌	-1.8134570484225305265		-0.9067285242112652632	100
011318	17:14:41	1	1	compatibletest1	3	attributeA	14	18	1	500	5	中秋节	-1.8251268174307124781		-0.912563408715356239	100
011318	17:14:41	1	1	compatibletest1	3	targetAleft	15	18	1	571	3	浪漫	-1.8366975973433234959		-0.9183487986716617479	100
011318	17:14:41	1	1	compatibletest1	3	attributeA	16	18	1	698	4	七夕节	-1.8317365805218355224		-0.9158682902609177612	100
011318	17:14:41	1	1	compatibletest1	3	targetAleft	17	18	1	500	6	时尚	-1.8393186141555573077		-0.9196593070777786538	100
011318	17:14:41	1	1	compatibletest1	3	attributeB	18	23	0	1165	1	感恩节	-1.6735054102305002566		-0.8367527051152501283	94.1176470588235218884
011318	17:14:41	1	1	compatibletest1	3	targetBright	19	23	0	895	5	过时	-1.6637547216137187345		-0.8318773608068593672	88.8888888888888857309
011318	17:14:41	1	1	compatibletest1	3	attributeA	20	18	1	510	6	重阳节	-1.6721508956859463257		-0.8360754478429731629	89.4736842105263150415
011318	17:14:41	1	1	compatibletest1	3	targetAleft	21	18	1	675	4	欢乐	-1.6862017391650507836		-0.8431008695825253918	90
011318	17:14:41	1	1	compatibletest2	5	attributeB	1	23	1	517	4	情人节	-1.6862017391650507836		-0.8431008695825253918	90.4761904761904816041
011318	17:14:41	1	1	compatibletest2	5	targetBright	2	23	1	493	4	无聊	-1.6862017391650507836	-1.4126191897958895183	-1.5494104644804700399	90.9090909090909065071
011318	17:14:41	1	1	compatibletest2	5	attributeA	3	18	0	775	2	清明节	-1.6862017391650507836	-1.5006728758724061645	-1.5934373075187284741	86.9565217391304372541
011318	17:14:41	1	1	compatibletest2	5	targetAleft	4	18	1	424	2	热闹	-1.6862017391650507836	-1.5603378738614896992	-1.6232698065132702414	87.5
011318	17:14:41	1	1	compatibletest2	5	attributeB	5	23	1	658	5	愚人节	-1.6862017391650507836	-1.637033945426281889	-1.6616178422956662253	88
011318	17:14:41	1	1	compatibletest2	5	targetBright	6	23	1	567	2	乏味	-1.6862017391650507836	-1.6934013533845262423	-1.6898015462747886239	88.4615384615384527933
011318	17:14:41	1	1	compatibletest2	5	attributeA	7	18	1	534	1	春节	-1.6862017391650507836	-1.7310718126867856714	-1.7086367759259182275	88.8888888888888857309
011318	17:14:41	1	1	compatibletest2	5	targetBright	8	23	1	490	3	枯燥	-1.6862017391650507836	-1.753083501090497931	-1.7196426201277743573	89.2857142857142918047
011318	17:14:41	1	1	compatibletest2	5	attributeA	9	18	1	403	3	端午节	-1.6862017391650507836	-1.7480480656523578187	-1.7171249024087043011	89.6551724137931103087
011318	17:14:41	1	1	compatibletest2	5	targetAleft	10	18	1	498	5	悠闲	-1.6862017391650507836	-1.7679367299365158495	-1.7270692345507834276	90
011318	17:14:41	1	1	compatibletest2	5	attributeA	11	18	1	501	2	清明节	-1.6862017391650507836	-1.7851787874571105608	-1.7356902633110806722	90.3225806451612811543
011318	17:14:41	1	1	compatibletest2	5	targetAleft	12	18	1	550	1	温馨	-1.6862017391650507836	-1.8022067355487536577	-1.7442042373569022207	90.625
011318	17:14:41	1	1	compatibletest2	5	attributeA	13	18	1	494	5	中秋节	-1.6862017391650507836	-1.8140521618394918058	-1.7501269505022714057	90.9090909090909065071
011318	17:14:41	1	1	compatibletest2	5	targetBright	14	23	1	608	5	过时	-1.6862017391650507836	-1.8239770681613622916	-1.7550894036632065376	91.176470588235289938
011318	17:14:41	1	1	compatibletest2	5	attributeA	15	18	0	949	4	七夕节	-1.6862017391650507836	-1.7411994963710963891	-1.7137006177680735863	88.5714285714285693984
011318	17:14:41	1	1	compatibletest2	5	targetAleft	16	18	1	533	6	时尚	-1.6862017391650507836	-1.7538238591718902093	-1.7200127991684706075	88.8888888888888857309
011318	17:14:41	1	1	compatibletest2	5	attributeB	17	23	1	724	2	圣诞节	-1.6862017391650507836	-1.7586651198866987134	-1.7224334295258747485	89.18918918918919303
011318	17:14:41	1	1	compatibletest2	5	targetBright	18	23	1	457	1	平淡	-1.6862017391650507836	-1.7608371963711082486	-1.7235194677680794051	89.4736842105263150415
011318	17:14:41	1	1	compatibletest2	5	attributeB	19	23	1	415	4	情人节	-1.6862017391650507836	-1.7571425635611082061	-1.7216721513630794949	89.7435897435897516061
011318	17:14:41	1	1	compatibletest2	5	targetAleft	20	18	1	570	4	欢乐	-1.6862017391650507836	-1.768071038753082691	-1.7271363889590667373	90
011318	17:14:41	1	1	compatibletest2	5	attributeB	21	23	1	599	5	愚人节	-1.6862017391650507836	-1.778145043408747128	-1.7321733912868988448	90.2439024390243957896
011318	17:14:41	1	1	compatibletest2	5	targetAleft	22	18	1	534	3	浪漫	-1.6862017391650507836	-1.7861867920795984066	-1.7361942656223245951	90.4761904761904816041
011318	17:14:41	1	1	compatibletest2	5	attributeB	23	23	1	531	3	万圣节	-1.6862017391650507836	-1.7935325915118658369	-1.7398671653384583102	90.6976744186046488494
011318	17:14:41	1	1	compatibletest2	5	targetAleft	24	18	1	531	1	温馨	-1.6862017391650507836	-1.8003883714865229759	-1.7432950553257868798	90.9090909090909065071
011318	17:14:41	1	1	compatibletest2	5	attributeB	25	23	1	653	6	复活节	-1.6862017391650507836	-1.8058919362998588909	-1.7460468377324547262	91.1111111111111142691
011318	17:14:41	1	1	compatibletest2	5	targetBright	26	23	1	650	2	乏味	-1.6862017391650507836	-1.8113146560934780815	-1.7487581976292645436	91.3043478260869534324
011318	17:14:41	1	1	compatibletest2	5	attributeB	27	23	1	400	1	感恩节	-1.6862017391650507836	-1.8053182955925763942	-1.7457600173788136999	91.4893617021276526202
011318	17:14:41	1	1	compatibletest2	5	targetAleft	28	18	1	512	2	热闹	-1.6862017391650507836	-1.8100323761896666142	-1.7481170576773585879	91.6666666666666571928
011318	17:14:41	1	1	compatibletest2	5	attributeA	29	18	1	502	6	重阳节	-1.6862017391650507836	-1.8140350159117588635	-1.7501183775384048236	91.8367346938775597209
011318	17:14:41	1	1	compatibletest2	5	targetBright	30	23	1	481	6	忙碌	-1.6862017391650507836	-1.8166868958414212898	-1.7514443175032359257	92
011318	17:14:41	1	1	compatibletest2	5	attributeA	31	18	1	537	1	春节	-1.6862017391650507836	-1.821711962538465901	-1.7539568508517584533	92.1568627450980386584
011318	17:14:41	1	1	compatibletest2	5	targetAleft	32	18	1	643	5	悠闲	-1.6862017391650507836	-1.8254388107900487714	-1.7558202749775497775	92.3076923076923065992
011318	17:14:41	1	1	compatibletest2	5	attributeA	33	18	1	574	3	端午节	-1.6862017391650507836	-1.8303707875853936216	-1.7582862633752220916	92.4528301886792434061
011318	17:14:41	1	1	compatibletest2	5	targetBright	34	23	1	597	3	枯燥	-1.6862017391650507836	-1.8349117311770706262	-1.7605567351710607049	92.5925925925925952242
011318	17:14:41	1	1	compatibletest2	5	attributeB	35	23	1	522	2	圣诞节	-1.6862017391650507836	-1.8384474128449770358	-1.7623245760050139097	92.7272727272727195214
011318	17:14:41	1	1	compatibletest2	5	targetAleft	36	18	1	429	1	温馨	-1.6862017391650507836	-1.8365352738488254225	-1.7613685065069382141	92.8571428571428612031
011318	17:14:41	1	1	compatibletest2	5	attributeA	37	18	1	612	4	七夕节	-1.6862017391650507836	-1.840244243160208848	-1.7632229911626298158	92.9824561403508766944
011318	17:14:41	1	1	compatibletest2	5	targetBright	38	23	1	691	4	无聊	-1.6862017391650507836	-1.840542919460843807	-1.7633723293129472953	93.1034482758620640652
011318	17:14:41	1	1	compatibletest2	5	attributeB	39	23	1	589	4	情人节	-1.6862017391650507836	-1.8443410249603129358	-1.7652713820626817487	93.2203389830508371006
011318	17:14:41	1	1	compatibletest2	5	targetBright	40	23	1	555	1	平淡	-1.6862017391650507836	-1.8478599198611211918	-1.7670308295130858767	93.3333333333333285964
011318	17:14:41	1	1	targetincompatiblepractice	6	targetBleft	2	18	1	271	6	忙碌	-1.6862017391650507836	-1.8478599198611211918	-1.7670308295130858767	93.3333333333333285964
011318	17:14:41	1	1	targetincompatiblepractice	6	targetAright	3	23	1	623	5	悠闲	-1.6862017391650507836	-1.8478599198611211918	-1.7670308295130858767	93.3333333333333285964
011318	17:14:41	1	1	targetincompatiblepractice	6	targetAright	4	23	1	300	6	时尚	-1.6862017391650507836	-1.8478599198611211918	-1.7670308295130858767	93.3333333333333285964
011318	17:14:41	1	1	targetincompatiblepractice	6	targetBleft	5	18	1	369	3	枯燥	-1.6862017391650507836	-1.8478599198611211918	-1.7670308295130858767	93.3333333333333285964
011318	17:14:41	1	1	targetincompatiblepractice	6	targetBleft	6	18	1	309	4	无聊	-1.6862017391650507836	-1.8478599198611211918	-1.7670308295130858767	93.3333333333333285964
011318	17:14:41	1	1	targetincompatiblepractice	6	targetBleft	7	18	1	521	2	乏味	-1.6862017391650507836	-1.8478599198611211918	-1.7670308295130858767	93.3333333333333285964
011318	17:14:41	1	1	targetincompatiblepractice	6	targetBleft	8	18	1	282	5	过时	-1.6862017391650507836	-1.8478599198611211918	-1.7670308295130858767	93.3333333333333285964
011318	17:14:41	1	1	targetincompatiblepractice	6	targetAright	9	23	1	641	2	热闹	-1.6862017391650507836	-1.8478599198611211918	-1.7670308295130858767	93.3333333333333285964
011318	17:14:41	1	1	targetincompatiblepractice	6	targetBleft	10	18	1	499	5	过时	-1.6862017391650507836	-1.8478599198611211918	-1.7670308295130858767	93.3333333333333285964
011318	17:14:41	1	1	targetincompatiblepractice	6	targetAright	11	23	1	585	3	浪漫	-1.6862017391650507836	-1.8478599198611211918	-1.7670308295130858767	93.3333333333333285964
011318	17:14:41	1	1	targetincompatiblepractice	6	targetAright	12	23	1	334	4	欢乐	-1.6862017391650507836	-1.8478599198611211918	-1.7670308295130858767	93.3333333333333285964
011318	17:14:41	1	1	targetincompatiblepractice	6	targetAright	13	23	1	573	6	时尚	-1.6862017391650507836	-1.8478599198611211918	-1.7670308295130858767	93.3333333333333285964
011318	17:14:41	1	1	targetincompatiblepractice	6	targetAright	14	23	1	598	3	浪漫	-1.6862017391650507836	-1.8478599198611211918	-1.7670308295130858767	93.3333333333333285964
011318	17:14:41	1	1	targetincompatiblepractice	6	targetBleft	15	18	1	651	3	枯燥	-1.6862017391650507836	-1.8478599198611211918	-1.7670308295130858767	93.3333333333333285964
011318	17:14:41	1	1	targetincompatiblepractice	6	targetBleft	16	18	1	520	2	乏味	-1.6862017391650507836	-1.8478599198611211918	-1.7670308295130858767	93.3333333333333285964
011318	17:14:41	1	1	targetincompatiblepractice	6	targetAright	17	23	1	655	2	热闹	-1.6862017391650507836	-1.8478599198611211918	-1.7670308295130858767	93.3333333333333285964
011318	17:14:41	1	1	targetincompatiblepractice	6	targetAright	18	23	1	513	4	欢乐	-1.6862017391650507836	-1.8478599198611211918	-1.7670308295130858767	93.3333333333333285964
011318	17:14:41	1	1	targetincompatiblepractice	6	targetAright	19	23	1	558	1	温馨	-1.6862017391650507836	-1.8478599198611211918	-1.7670308295130858767	93.3333333333333285964
011318	17:14:41	1	1	targetincompatiblepractice	6	targetBleft	20	18	1	359	4	无聊	-1.6862017391650507836	-1.8478599198611211918	-1.7670308295130858767	93.3333333333333285964
011318	17:14:41	1	1	targetincompatiblepractice	6	targetBleft	21	18	1	451	6	忙碌	-1.6862017391650507836	-1.8478599198611211918	-1.7670308295130858767	93.3333333333333285964
011318	17:14:41	1	1	incompatibletest1	7	attributeA	2	18	0	1083	5	中秋节	1.6027337234820562273	-1.8478599198611211918	-0.1225630981895324823	91.8032786885245855046
011318	17:14:41	1	1	incompatibletest1	7	targetAright	3	23	1	612	5	悠闲	1.1178614849988262048	-1.8478599198611211918	-0.3649992174311474935	91.9354838709677437691
011318	17:14:41	1	1	incompatibletest1	7	attributeB	4	23	1	641	1	感恩节	0.8848978058803278479	-1.8478599198611211918	-0.4814810569903966719	92.0634920634920632665
011318	17:14:41	1	1	incompatibletest1	7	targetAright	5	23	1	839	2	热闹	0.9568055798579434557	-1.8478599198611211918	-0.4455271700015888681	92.1875
011318	17:14:41	1	1	incompatibletest1	7	attributeA	6	18	0	1117	3	端午节	1.1448846255268239069	-1.8478599198611211918	-0.3514876471671486424	90.7692307692307736033
011318	17:14:41	1	1	incompatibletest1	7	targetBleft	7	18	1	440	1	平淡	0.871877906425214233	-1.8478599198611211918	-0.4879910067179534794	90.9090909090909065071
011318	17:14:41	1	1	incompatibletest1	7	attributeA	8	18	1	597	2	清明节	0.7702721311309651542	-1.8478599198611211918	-0.5387938943650780743	91.0447761194029823173
011318	17:14:41	1	1	incompatibletest1	7	targetBleft	9	18	1	447	4	无聊	0.59402476402928861	-1.8478599198611211918	-0.6269175779159162909	91.176470588235289938
011318	17:14:41	1	1	incompatibletest1	7	attributeA	10	18	1	509	1	春节	0.4894372849733195641	-1.8478599198611211918	-0.6792113174439008416	91.3043478260869534324
011318	17:14:41	1	1	incompatibletest1	7	targetAright	11	23	1	435	5	悠闲	0.3643246322627592404	-1.8478599198611211918	-0.7417676437991809202	91.4285714285714306016
011318	17:14:41	1	1	incompatibletest1	7	attributeA	12	18	1	561	6	重阳节	0.3205821774833037541	-1.8478599198611211918	-0.7636388711889087189	91.5492957746478879244
011318	17:14:41	1	1	incompatibletest1	7	targetAright	13	23	1	496	3	浪漫	0.2552448898458306026	-1.8478599198611211918	-0.7963075150076452946	91.6666666666666571928
011318	17:14:41	1	1	incompatibletest1	7	attributeB	14	23	1	584	6	复活节	0.2343323020799541467	-1.8478599198611211918	-0.8067638088905835225	91.7808219178082254075
011318	17:14:41	1	1	incompatibletest1	7	targetBleft	15	18	1	665	3	枯燥	0.2457659729657574454	-1.8478599198611211918	-0.8010469734476818315	91.8918918918919018779
011318	17:14:41	1	1	incompatibletest1	7	attributeB	16	23	1	379	5	愚人节	0.1538315657748540177	-1.8478599198611211918	-0.8470141770431336425	92
011318	17:14:41	1	1	incompatibletest1	7	targetBleft	17	18	1	392	1	平淡	0.0786720749712759848	-1.8478599198611211918	-0.8845939224449226312	92.1052631578947398339
011318	17:14:41	1	1	incompatibletest1	7	attributeB	18	23	1	430	3	万圣节	0.0241887332391053193	-1.8478599198611211918	-0.9118355933110079414	92.2077922077922096378
011318	17:14:41	1	1	incompatibletest1	7	targetBleft	19	18	0	633	5	过时	0.0335403754723906725	-1.8478599198611211918	-0.907159772194365277	91.0256410256410219972
011318	17:14:41	1	1	incompatibletest1	7	attributeB	20	23	1	486	2	圣诞节	0.0016068886776242006	-1.8478599198611211918	-0.9231265155917485199	91.1392405063291164424
011318	17:14:41	1	1	incompatibletest1	7	targetAright	21	23	1	741	6	时尚	0.0393696079443317873	-1.8478599198611211918	-0.9042451559583947196	91.25
011318	17:14:41	1	1	incompatibletest2	9	attributeA	1	18	1	569	3	端午节	0.0393696079443317873	0.1087690607169145562	0.0740693343306231683	91.3580246913580253931
011318	17:14:41	1	1	incompatibletest2	9	targetAright	2	23	1	338	4	欢乐	0.0393696079443317873	-0.8731114977045967285	-0.4168709448801324879	91.4634146341463463159
011318	17:14:41	1	1	incompatibletest2	9	attributeA	3	18	1	673	4	七夕节	0.0393696079443317873	-0.2799950724468929231	-0.1203127322512805714	91.5662650602409655676
011318	17:14:41	1	1	incompatibletest2	9	targetAright	4	23	1	544	1	温馨	0.0393696079443317873	-0.2441005802415424641	-0.1023654861486053419	91.6666666666666571928
011318	17:14:41	1	1	incompatibletest2	9	attributeA	5	18	1	502	6	重阳节	0.0393696079443317873	-0.2994862498589808131	-0.1300583209573245025	91.7647058823529420124
011318	17:14:41	1	1	incompatibletest2	9	targetAright	6	23	1	427	2	热闹	0.0393696079443317873	-0.4459832837733540001	-0.203306837914511096	91.8604651162790730723
011318	17:14:41	1	1	incompatibletest2	9	attributeB	7	23	0	1063	3	万圣节	0.0393696079443317873	0.2332760139187315951	0.1363228109315317016	90.8045977011494187536
011318	17:14:41	1	1	incompatibletest2	9	targetBleft	8	18	1	413	2	乏味	0.0393696079443317873	0.0657030914518044878	0.052536349698068141	90.9090909090909065071
011318	17:14:41	1	1	incompatibletest2	9	attributeB	9	23	1	715	2	圣诞节	0.0393696079443317873	0.1913381492868431455	0.1153538786155874629	91.0112359550561791366
011318	17:14:41	1	1	incompatibletest2	9	targetAright	10	23	1	442	6	时尚	0.0393696079443317873	0.084460417006752414	0.0619150124755420972	91.1111111111111142691
011318	17:14:41	1	1	incompatibletest2	9	attributeB	11	23	1	540	5	愚人节	0.0393696079443317873	0.0652381376303881183	0.0523038727873599563	91.2087912087912116021
011318	17:14:41	1	1	incompatibletest2	9	targetBleft	12	18	1	524	6	忙碌	0.0393696079443317873	0.0385731331586520662	0.0389713705514919267	91.3043478260869534324
011318	17:14:41	1	1	incompatibletest2	9	attributeA	13	18	1	580	1	春节	0.0393696079443317873	0.0495273547348156762	0.0444484813395737283	91.3978494623655848272
011318	17:14:41	1	1	incompatibletest2	9	targetAright	14	23	1	575	3	浪漫	0.0393696079443317873	0.0563193541659706767	0.047844481055151232	91.4893617021276526202
011318	17:14:41	1	1	incompatibletest2	9	attributeB	15	23	1	463	6	复活节	0.0393696079443317873	0.0025246098702543796	0.0209471089072930834	91.5789473684210548754
011318	17:14:41	1	1	incompatibletest2	9	targetBleft	16	18	1	673	5	过时	0.0393696079443317873	0.0599803518023507426	0.0496749798733412684	91.6666666666666571928
011318	17:14:41	1	1	incompatibletest2	9	attributeA	17	18	1	284	5	中秋节	0.0393696079443317873	-0.0697167748362625822	-0.0151735834459653975	91.752577319587629745
011318	17:14:41	1	1	incompatibletest2	9	targetBleft	18	18	1	394	6	忙碌	0.0393696079443317873	-0.1354193938792016549	-0.0480248929674349373	91.8367346938775597209
011318	17:14:41	1	1	incompatibletest2	9	attributeA	19	18	1	442	2	清明节	0.0393696079443317873	-0.1754889113935757805	-0.0680596517246220001	91.9191919191919168952
011318	17:14:41	1	1	incompatibletest2	9	targetBleft	20	18	1	448	2	乏味	0.0393696079443317873	-0.2096126176769723404	-0.08512150486632028	92
011318	17:14:41	1	1	incompatibletest2	9	attributeA	21	18	1	744	1	春节	0.0393696079443317873	-0.1296660658702843416	-0.0451482289629762806	92.0792079207920863837
011318	17:14:41	1	1	incompatibletest2	9	targetBleft	22	18	1	560	3	枯燥	0.0393696079443317873	-0.123940587180180542	-0.0422854896179243739	92.1568627450980386584
011318	17:14:41	1	1	incompatibletest2	9	attributeB	23	23	1	328	1	感恩节	0.0393696079443317873	-0.1925947598593238386	-0.0766125759574960291	92.2330097087378675269
011318	17:14:41	1	1	incompatibletest2	9	targetAright	24	23	1	558	4	欢乐	0.0393696079443317873	-0.1859135557080564272	-0.0732719738818623234	92.3076923076923065992
011318	17:14:41	1	1	incompatibletest2	9	attributeB	25	23	1	649	4	情人节	0.0393696079443317873	-0.1509507798277689439	-0.0557905859417185818	92.380952380952379599
011318	17:14:41	1	1	incompatibletest2	9	targetAright	26	23	1	441	5	悠闲	0.0393696079443317873	-0.1800372875949220186	-0.0703338398252951191	92.4528301886792434061
011318	17:14:41	1	1	incompatibletest2	9	attributeA	27	18	1	525	5	中秋节	0.0393696079443317873	-0.1840203147139640172	-0.0723253533848161184	92.5233644859813040284
011318	17:14:41	1	1	incompatibletest2	9	targetBleft	28	18	1	395	1	平淡	0.0393696079443317873	-0.2218736945129516358	-0.0912520432843099277	92.5925925925925952242
011318	17:14:41	1	1	incompatibletest2	9	attributeB	29	23	1	602	6	复活节	0.0393696079443317873	-0.2035887594978642023	-0.082109575776766211	92.6605504587155905938
011318	17:14:41	1	1	incompatibletest2	9	targetAright	30	23	0	955	1	温馨	0.0393696079443317873	-0.0880597021878179592	-0.024345047121743086	91.8181818181818272251
011318	17:14:41	1	1	incompatibletest2	9	attributeA	31	18	1	521	3	端午节	0.0393696079443317873	-0.0945012965209233724	-0.0275658442882957926	91.8918918918919018779
011318	17:14:41	1	1	incompatibletest2	9	targetAright	32	23	0	1232	1	温馨	0.0393696079443317873	0.0553452080896819701	0.0473574080170068787	91.0714285714285693984
011318	17:14:41	1	1	incompatibletest2	9	attributeB	33	23	1	462	5	愚人节	0.0393696079443317873	0.0353305082024227002	0.0373500580733772403	91.1504424778760977688
011318	17:14:41	1	1	incompatibletest2	9	targetBleft	34	18	1	487	4	无聊	0.0393696079443317873	0.0211013841124454149	0.0302354960283886011	91.2280701754385887625
011318	17:14:41	1	1	incompatibletest2	9	attributeB	35	23	1	506	2	圣诞节	0.0393696079443317873	0.0110707266753323486	0.0252201673098320679	91.3043478260869534324
011318	17:14:41	1	1	incompatibletest2	9	targetAright	36	23	0	1108	3	浪漫	0.0393696079443317873	0.1023295114009065143	0.0708495596726191473	90.5172413793103487478
011318	17:14:41	1	1	incompatibletest2	9	attributeB	37	23	1	466	1	感恩节	0.0393696079443317873	0.0849866402479698274	0.0621781240961508108	90.5982905982906032705
011318	17:14:41	1	1	incompatibletest2	9	targetBleft	38	18	1	557	5	过时	0.0393696079443317873	0.0832034652266653157	0.061286536585498555	90.6779661016949205532
011318	17:14:41	1	1	incompatibletest2	9	attributeA	39	18	1	492	2	清明节	0.0393696079443317873	0.0711829152470355442	0.0552762615956836623	90.7563025210084077798
011318	17:14:41	1	1	incompatibletest2	9	targetBleft	40	18	1	295	4	无聊	0.0393696079443317873	0.0288345140484727314	0.0341020609964022559	90.8333333333333285964
