date	time	group	subject	blockcode	blocknum	trialcode	trialnum	response	correct	latency	stimulusnumber1	stimulusitem1	expressions.da	expressions.db	expressions.d	expressions.percentcorrect
011318	16:59:39	1	1	targetcompatiblepractice	1	targetAleft	2	18	1	477	1	温馨			0	0
011318	16:59:39	1	1	targetcompatiblepractice	1	targetAleft	3	18	1	487	5	悠闲			0	0
011318	16:59:39	1	1	targetcompatiblepractice	1	targetBright	4	23	1	507	3	枯燥			0	0
011318	16:59:39	1	1	targetcompatiblepractice	1	targetBright	5	23	1	536	5	过时			0	0
011318	16:59:39	1	1	targetcompatiblepractice	1	targetBright	6	23	1	410	2	乏味			0	0
011318	16:59:39	1	1	targetcompatiblepractice	1	targetBright	7	23	1	473	4	无聊			0	0
011318	16:59:39	1	1	targetcompatiblepractice	1	targetAleft	8	18	1	626	4	欢乐			0	0
011318	16:59:39	1	1	targetcompatiblepractice	1	targetBright	9	23	1	450	1	平淡			0	0
011318	16:59:39	1	1	targetcompatiblepractice	1	targetAleft	10	18	1	429	2	热闹			0	0
011318	16:59:39	1	1	targetcompatiblepractice	1	targetBright	11	23	1	357	6	忙碌			0	0
011318	16:59:39	1	1	targetcompatiblepractice	1	targetAleft	12	18	1	436	6	时尚			0	0
011318	16:59:39	1	1	targetcompatiblepractice	1	targetAleft	13	18	1	526	3	浪漫			0	0
011318	16:59:39	1	1	targetcompatiblepractice	1	targetBright	14	23	1	410	5	过时			0	0
011318	16:59:39	1	1	targetcompatiblepractice	1	targetBright	15	23	1	597	4	无聊			0	0
011318	16:59:39	1	1	targetcompatiblepractice	1	targetBright	16	23	0	837	2	乏味			0	0
011318	16:59:39	1	1	targetcompatiblepractice	1	targetBright	17	23	1	371	3	枯燥			0	0
011318	16:59:39	1	1	targetcompatiblepractice	1	targetAleft	18	18	0	1015	4	欢乐			0	0
011318	16:59:39	1	1	targetcompatiblepractice	1	targetAleft	19	18	1	665	1	温馨			0	0
011318	16:59:39	1	1	targetcompatiblepractice	1	targetAleft	20	18	1	589	2	热闹			0	0
011318	16:59:39	1	1	targetcompatiblepractice	1	targetAleft	21	18	1	583	5	悠闲			0	0
011318	16:59:39	1	1	attributepractice	2	attributeA	2	18	1	479	1	春节			0	0
011318	16:59:39	1	1	attributepractice	2	attributeA	3	18	1	682	3	端午节			0	0
011318	16:59:39	1	1	attributepractice	2	attributeA	4	18	1	266	5	中秋节			0	0
011318	16:59:39	1	1	attributepractice	2	attributeA	5	18	1	574	2	清明节			0	0
011318	16:59:39	1	1	attributepractice	2	attributeA	6	18	1	305	4	七夕节			0	0
011318	16:59:39	1	1	attributepractice	2	attributeB	7	23	1	639	5	愚人节			0	0
011318	16:59:39	1	1	attributepractice	2	attributeB	8	23	1	540	1	感恩节			0	0
011318	16:59:39	1	1	attributepractice	2	attributeA	9	18	1	446	6	重阳节			0	0
011318	16:59:39	1	1	attributepractice	2	attributeA	10	18	1	508	3	端午节			0	0
011318	16:59:39	1	1	attributepractice	2	attributeB	11	23	1	444	6	复活节			0	0
011318	16:59:39	1	1	attributepractice	2	attributeB	12	23	1	561	4	情人节			0	0
011318	16:59:39	1	1	attributepractice	2	attributeB	13	23	1	745	2	圣诞节			0	0
011318	16:59:39	1	1	attributepractice	2	attributeA	14	18	1	401	5	中秋节			0	0
011318	16:59:39	1	1	attributepractice	2	attributeB	15	23	1	496	3	万圣节			0	0
011318	16:59:39	1	1	attributepractice	2	attributeB	16	23	1	706	2	圣诞节			0	0
011318	16:59:39	1	1	attributepractice	2	attributeA	17	18	1	653	2	清明节			0	0
011318	16:59:39	1	1	attributepractice	2	attributeB	18	23	1	546	6	复活节			0	0
011318	16:59:39	1	1	attributepractice	2	attributeB	19	23	1	539	1	感恩节			0	0
011318	16:59:39	1	1	attributepractice	2	attributeB	20	23	1	565	5	愚人节			0	0
011318	16:59:39	1	1	attributepractice	2	attributeA	21	18	1	538	1	春节			0	0
011318	16:59:39	1	1	compatibletest1	3	attributeA	2	18	1	530	4	七夕节			0	100
011318	16:59:39	1	1	compatibletest1	3	targetBright	3	23	1	728	1	平淡	-1.3489579218223819446		-0.6744789609111909723	100
011318	16:59:39	1	1	compatibletest1	3	attributeB	4	23	1	582	4	情人节	-1.5752200761446262245		-0.7876100380723131122	100
011318	16:59:39	1	1	compatibletest1	3	targetBright	5	23	1	615	6	忙碌	-1.6855374481981926227		-0.8427687240990963113	100
011318	16:59:39	1	1	compatibletest1	3	attributeA	6	18	0	1815	6	重阳节	-1.1822623090708941351		-0.5911311545354470676	80
011318	16:59:39	1	1	compatibletest1	3	targetBright	7	23	1	441	6	忙碌	-1.172452520199618764		-0.586226260099809382	83.3333333333333428072
011318	16:59:39	1	1	compatibletest1	3	attributeB	8	23	1	517	3	万圣节	-1.1920122631937659641		-0.596006131596882982	85.7142857142857081953
011318	16:59:39	1	1	compatibletest1	3	targetAleft	9	18	1	606	3	浪漫	-1.2300918686054995721		-0.615045934302749786	87.5
011318	16:59:39	1	1	compatibletest1	3	attributeA	10	18	1	642	2	清明节	-1.2699379532352863542		-0.6349689766176431771	88.8888888888888857309
011318	16:59:39	1	1	compatibletest1	3	targetAleft	11	18	1	582	6	时尚	-1.2968482232633591344		-0.6484241116316795672	90
011318	16:59:39	1	1	compatibletest1	3	attributeB	12	23	1	563	6	复活节	-1.3190088742792775989		-0.6595044371396387994	90.9090909090909065071
011318	16:59:39	1	1	compatibletest1	3	targetBright	13	23	1	598	1	平淡	-1.3445190689833932396		-0.6722595344916966198	91.6666666666666571928
011318	16:59:39	1	1	compatibletest1	3	attributeA	14	18	1	473	5	中秋节	-1.3504510542036596288		-0.6752255271018298144	92.3076923076923065992
011318	16:59:39	1	1	compatibletest1	3	targetAleft	15	18	1	490	4	欢乐	-1.3598933305107321345		-0.6799466652553660673	92.8571428571428612031
011318	16:59:39	1	1	compatibletest1	3	attributeB	16	23	1	354	3	万圣节	-1.3469079426960728352		-0.6734539713480364176	93.3333333333333285964
011318	16:59:39	1	1	compatibletest1	3	targetAleft	17	18	1	436	1	温馨	-1.3505413353484247985		-0.6752706676742123992	93.75
011318	16:59:39	1	1	compatibletest1	3	attributeB	18	23	1	367	1	感恩节	-1.3443641890290973784		-0.6721820945145486892	94.1176470588235218884
011318	16:59:39	1	1	compatibletest1	3	targetAleft	19	18	1	549	2	热闹	-1.3621548155658929069		-0.6810774077829464535	94.4444444444444428655
011318	16:59:39	1	1	compatibletest1	3	attributeA	20	18	1	325	3	端午节	-1.3510735605124848391		-0.6755367802562424195	94.7368421052631504153
011318	16:59:39	1	1	compatibletest1	3	targetBright	21	23	1	524	3	枯燥	-1.3661168502493847843		-0.6830584251246923921	95
011318	16:59:39	1	1	compatibletest2	5	attributeA	1	18	1	401	6	重阳节	-1.3661168502493847843		-0.6830584251246923921	95.2380952380952265912
011318	16:59:39	1	1	compatibletest2	5	targetBright	2	23	1	646	5	过时	-1.3661168502493847843	-1.2808793756458469737	-1.32349811294761599	95.4545454545454532536
011318	16:59:39	1	1	compatibletest2	5	attributeB	3	23	1	540	4	情人节	-1.3661168502493847843	-1.5268537048628993968	-1.4464852775561420906	95.6521739130434838216
011318	16:59:39	1	1	compatibletest2	5	targetBright	4	23	1	384	2	乏味	-1.3661168502493847843	-1.5882349503619661579	-1.4771759003056754711	95.8333333333333428072
011318	16:59:39	1	1	compatibletest2	5	attributeB	5	23	1	520	5	愚人节	-1.3661168502493847843	-1.66807161752149824	-1.5170942338854414011	96
011318	16:59:39	1	1	compatibletest2	5	targetBright	6	23	1	670	4	无聊	-1.3661168502493847843	-1.687246615825806817	-1.5266817330375959116	96.153846153846160405
011318	16:59:39	1	1	compatibletest2	5	attributeB	7	23	0	1256	2	圣诞节	-1.3661168502493847843	-1.3972494171469507229	-1.3816831336981678646	92.5925925925925952242
011318	16:59:39	1	1	compatibletest2	5	targetAleft	8	18	1	493	6	时尚	-1.3661168502493847843	-1.4258811390229948479	-1.3959989946361899271	92.8571428571428612031
011318	16:59:39	1	1	compatibletest2	5	attributeA	9	18	1	484	1	春节	-1.3661168502493847843	-1.4500236352195234879	-1.4080702427344542471	93.1034482758620640652
011318	16:59:39	1	1	compatibletest2	5	targetBright	10	23	1	565	5	过时	-1.3661168502493847843	-1.4859815590349487735	-1.4260492046421666679	93.3333333333333285964
011318	16:59:39	1	1	compatibletest2	5	attributeA	11	18	1	582	4	七夕节	-1.3661168502493847843	-1.5191626383663592303	-1.4426397443078720073	93.5483870967741921731
011318	16:59:39	1	1	compatibletest2	5	targetAleft	12	18	1	596	3	浪漫	-1.3661168502493847843	-1.5493464364608366957	-1.457731643355110851	93.75
011318	16:59:39	1	1	compatibletest2	5	attributeA	13	18	0	866	4	七夕节	-1.3661168502493847843	-1.5639347547354844892	-1.4650258024924345257	90.9090909090909065071
011318	16:59:39	1	1	compatibletest2	5	targetBright	14	23	1	451	6	忙碌	-1.3661168502493847843	-1.5675838801278225709	-1.4668503651886037886	91.176470588235289938
011318	16:59:39	1	1	compatibletest2	5	attributeB	15	23	1	497	6	复活节	-1.3661168502493847843	-1.5792719980757190523	-1.4726944241625519183	91.4285714285714306016
011318	16:59:39	1	1	compatibletest2	5	targetAleft	16	18	1	464	5	悠闲	-1.3661168502493847843	-1.5859229494320237208	-1.4760198998407041415	91.6666666666666571928
011318	16:59:39	1	1	compatibletest2	5	attributeA	17	18	1	624	1	春节	-1.3661168502493847843	-1.6060010188119970831	-1.4860589345306909337	91.8918918918919018779
011318	16:59:39	1	1	compatibletest2	5	targetBright	18	23	1	453	1	平淡	-1.3661168502493847843	-1.6101088728211381262	-1.4881128615352614553	92.1052631578947398339
011318	16:59:39	1	1	compatibletest2	5	attributeB	19	23	1	664	2	圣诞节	-1.3661168502493847843	-1.6274845930215733336	-1.4968007216354790589	92.3076923076923065992
011318	16:59:39	1	1	compatibletest2	5	targetAleft	20	18	1	563	5	悠闲	-1.3661168502493847843	-1.6409780823498736346	-1.5035474662996293205	92.5
011318	16:59:39	1	1	compatibletest2	5	attributeB	21	23	1	249	5	愚人节	-1.3661168502493847843	-1.6058029986832109692	-1.4859599244662979878	92.6829268292682968422
011318	16:59:39	1	1	compatibletest2	5	targetAleft	22	18	1	673	2	热闹	-1.3661168502493847843	-1.6205746715799083102	-1.4933457609146465472	92.8571428571428612031
011318	16:59:39	1	1	compatibletest2	5	attributeA	23	18	1	424	3	端午节	-1.3661168502493847843	-1.6211234124222753117	-1.493620131335830159	93.0232558139534830843
011318	16:59:39	1	1	compatibletest2	5	targetAleft	24	18	1	410	1	温馨	-1.3661168502493847843	-1.6204504818120795129	-1.4932836660307322596	93.1818181818181727749
011318	16:59:39	1	1	compatibletest2	5	attributeB	25	23	1	647	1	感恩节	-1.3661168502493847843	-1.6331994001124043869	-1.4996581251808946966	93.3333333333333285964
011318	16:59:39	1	1	compatibletest2	5	targetBright	26	23	1	613	2	乏味	-1.3661168502493847843	-1.6451692995915916384	-1.5056430749204881003	93.478260869565218627
011318	16:59:39	1	1	compatibletest2	5	attributeA	27	18	1	521	6	重阳节	-1.3661168502493847843	-1.6535154450875539922	-1.5098161476684692772	93.6170212765957501233
011318	16:59:39	1	1	compatibletest2	5	targetAleft	28	18	1	835	6	时尚	-1.3661168502493847843	-1.653077706793967705	-1.5095972785216762446	93.75
011318	16:59:39	1	1	compatibletest2	5	attributeA	29	18	1	603	2	清明节	-1.3661168502493847843	-1.663120369888833272	-1.5146186100691090282	93.8775510204081626853
011318	16:59:39	1	1	compatibletest2	5	targetAleft	30	18	1	382	4	欢乐	-1.3661168502493847843	-1.6579188717376127649	-1.5120178609934988856	94
011318	16:59:39	1	1	compatibletest2	5	attributeB	31	23	1	587	3	万圣节	-1.3661168502493847843	-1.667032480524844873	-1.5165746653871148286	94.1176470588235218884
011318	16:59:39	1	1	compatibletest2	5	targetAleft	32	18	1	455	3	浪漫	-1.3661168502493847843	-1.6693783177351144698	-1.517747583992249627	94.2307692307692263967
011318	16:59:39	1	1	compatibletest2	5	attributeA	33	18	1	536	5	中秋节	-1.3661168502493847843	-1.6763969063932873116	-1.5212568783213360479	94.3396226415094361073
011318	16:59:39	1	1	compatibletest2	5	targetAleft	34	18	0	665	4	欢乐	-1.3661168502493847843	-1.6841766899767078858	-1.525146770113046335	92.5925925925925952242
011318	16:59:39	1	1	compatibletest2	5	attributeB	35	23	1	606	4	情人节	-1.3661168502493847843	-1.6919686546668848415	-1.5290427524581349239	92.7272727272727195214
011318	16:59:39	1	1	compatibletest2	5	targetBright	36	23	1	363	4	无聊	-1.3661168502493847843	-1.68544281049605571	-1.5257798303727203582	92.8571428571428612031
011318	16:59:39	1	1	compatibletest2	5	attributeB	37	23	1	535	4	情人节	-1.3661168502493847843	-1.6914869013151341282	-1.5288018757822594562	92.9824561403508766944
011318	16:59:39	1	1	compatibletest2	5	targetBright	38	23	1	584	3	枯燥	-1.3661168502493847843	-1.6983783159577152677	-1.532247583103550026	93.1034482758620640652
011318	16:59:39	1	1	compatibletest2	5	attributeA	39	18	1	502	5	中秋节	-1.3661168502493847843	-1.7026751266112993832	-1.5343959884303419727	93.2203389830508371006
011318	16:59:39	1	1	compatibletest2	5	targetBright	40	23	1	452	1	平淡	-1.3661168502493847843	-1.7042148499066986922	-1.5351658500780418493	93.3333333333333285964
011318	16:59:39	1	1	targetincompatiblepractice	6	targetBleft	2	18	0	983	2	乏味	-1.3661168502493847843	-1.7042148499066986922	-1.5351658500780418493	93.3333333333333285964
011318	16:59:39	1	1	targetincompatiblepractice	6	targetBleft	3	18	0	1191	3	枯燥	-1.3661168502493847843	-1.7042148499066986922	-1.5351658500780418493	93.3333333333333285964
011318	16:59:39	1	1	targetincompatiblepractice	6	targetBleft	4	18	1	483	6	忙碌	-1.3661168502493847843	-1.7042148499066986922	-1.5351658500780418493	93.3333333333333285964
011318	16:59:39	1	1	targetincompatiblepractice	6	targetBleft	5	18	1	452	5	过时	-1.3661168502493847843	-1.7042148499066986922	-1.5351658500780418493	93.3333333333333285964
011318	16:59:39	1	1	targetincompatiblepractice	6	targetBleft	6	18	1	560	4	无聊	-1.3661168502493847843	-1.7042148499066986922	-1.5351658500780418493	93.3333333333333285964
011318	16:59:39	1	1	targetincompatiblepractice	6	targetAright	7	23	1	532	2	热闹	-1.3661168502493847843	-1.7042148499066986922	-1.5351658500780418493	93.3333333333333285964
011318	16:59:39	1	1	targetincompatiblepractice	6	targetBleft	8	18	1	419	5	过时	-1.3661168502493847843	-1.7042148499066986922	-1.5351658500780418493	93.3333333333333285964
011318	16:59:39	1	1	targetincompatiblepractice	6	targetAright	9	23	1	512	6	时尚	-1.3661168502493847843	-1.7042148499066986922	-1.5351658500780418493	93.3333333333333285964
011318	16:59:39	1	1	targetincompatiblepractice	6	targetAright	10	23	1	535	3	浪漫	-1.3661168502493847843	-1.7042148499066986922	-1.5351658500780418493	93.3333333333333285964
011318	16:59:39	1	1	targetincompatiblepractice	6	targetBleft	11	18	0	1028	6	忙碌	-1.3661168502493847843	-1.7042148499066986922	-1.5351658500780418493	93.3333333333333285964
011318	16:59:39	1	1	targetincompatiblepractice	6	targetAright	12	23	1	429	1	温馨	-1.3661168502493847843	-1.7042148499066986922	-1.5351658500780418493	93.3333333333333285964
011318	16:59:39	1	1	targetincompatiblepractice	6	targetAright	13	23	1	503	5	悠闲	-1.3661168502493847843	-1.7042148499066986922	-1.5351658500780418493	93.3333333333333285964
011318	16:59:39	1	1	targetincompatiblepractice	6	targetBleft	14	18	1	649	1	平淡	-1.3661168502493847843	-1.7042148499066986922	-1.5351658500780418493	93.3333333333333285964
011318	16:59:39	1	1	targetincompatiblepractice	6	targetAright	15	23	1	413	2	热闹	-1.3661168502493847843	-1.7042148499066986922	-1.5351658500780418493	93.3333333333333285964
011318	16:59:39	1	1	targetincompatiblepractice	6	targetBleft	16	18	1	279	2	乏味	-1.3661168502493847843	-1.7042148499066986922	-1.5351658500780418493	93.3333333333333285964
011318	16:59:39	1	1	targetincompatiblepractice	6	targetAright	17	23	1	490	5	悠闲	-1.3661168502493847843	-1.7042148499066986922	-1.5351658500780418493	93.3333333333333285964
011318	16:59:39	1	1	targetincompatiblepractice	6	targetBleft	18	18	1	492	3	枯燥	-1.3661168502493847843	-1.7042148499066986922	-1.5351658500780418493	93.3333333333333285964
011318	16:59:39	1	1	targetincompatiblepractice	6	targetAright	19	23	1	456	3	浪漫	-1.3661168502493847843	-1.7042148499066986922	-1.5351658500780418493	93.3333333333333285964
011318	16:59:39	1	1	targetincompatiblepractice	6	targetAright	20	23	1	325	1	温馨	-1.3661168502493847843	-1.7042148499066986922	-1.5351658500780418493	93.3333333333333285964
011318	16:59:39	1	1	targetincompatiblepractice	6	targetAright	21	23	1	678	6	时尚	-1.3661168502493847843	-1.7042148499066986922	-1.5351658500780418493	93.3333333333333285964
011318	16:59:39	1	1	incompatibletest1	7	attributeB	2	23	0	1053	1	感恩节	1.2189268147706240342	-1.7042148499066986922	-0.242644017568037329	91.8032786885245855046
011318	16:59:39	1	1	incompatibletest1	7	targetAright	3	23	1	438	4	欢乐	0.5002982444382815252	-1.7042148499066986922	-0.6019583027342085835	91.9354838709677437691
011318	16:59:39	1	1	incompatibletest1	7	attributeB	4	23	1	651	6	复活节	0.4142945284371016279	-1.7042148499066986922	-0.6449601607347985599	92.0634920634920632665
011318	16:59:39	1	1	incompatibletest1	7	targetAright	5	23	1	539	5	悠闲	0.2797647962597694105	-1.7042148499066986922	-0.7122250268234646686	92.1875
011318	16:59:39	1	1	incompatibletest1	7	attributeB	6	23	1	506	2	圣诞节	0.1733941479087814652	-1.7042148499066986922	-0.7654103509989585996	92.3076923076923065992
011318	16:59:39	1	1	incompatibletest1	7	targetBleft	7	18	1	569	4	无聊	0.1371305041829901095	-1.7042148499066986922	-0.7835421728618543469	92.4242424242424220893
011318	16:59:39	1	1	incompatibletest1	7	attributeA	8	18	1	668	1	春节	0.1610688923277882323	-1.7042148499066986922	-0.7715729787894551883	92.5373134328358162293
011318	16:59:39	1	1	incompatibletest1	7	targetAright	9	23	1	631	1	温馨	0.1636654380345575754	-1.7042148499066986922	-0.7702747059360706139	92.647058823529420124
011318	16:59:39	1	1	incompatibletest1	7	attributeB	10	23	1	412	3	万圣节	0.0756469101697725965	-1.7042148499066986922	-0.8142839698684630756	92.7536231884057968955
011318	16:59:39	1	1	incompatibletest1	7	targetAright	11	23	1	503	6	时尚	0.0378740869789193774	-1.7042148499066986922	-0.8331703814638896644	92.8571428571428612031
011318	16:59:39	1	1	incompatibletest1	7	attributeA	12	18	1	703	4	七夕节	0.0748698398577083424	-1.7042148499066986922	-0.8146725050244951749	92.9577464788732328316
011318	16:59:39	1	1	incompatibletest1	7	targetBleft	13	18	1	588	6	忙碌	0.0701347131687750647	-1.7042148499066986922	-0.8170400683689618138	93.0555555555555571345
011318	16:59:39	1	1	incompatibletest1	7	attributeA	14	18	1	554	2	清明节	0.0558811117178881211	-1.7042148499066986922	-0.8241668690944052855	93.1506849315068450323
011318	16:59:39	1	1	incompatibletest1	7	targetBleft	15	18	1	513	1	平淡	0.0317207682082473325	-1.7042148499066986922	-0.8362470408492256313	93.243243243243242091
011318	16:59:39	1	1	incompatibletest1	7	attributeA	16	18	1	418	3	端午节	-0.0151102598865900401	-1.7042148499066986922	-0.8596625548966443375	93.3333333333333285964
011318	16:59:39	1	1	incompatibletest1	7	targetBleft	17	18	1	562	5	过时	-0.0206637242520654602	-1.7042148499066986922	-0.8624392870793821109	93.4210526315789451246
011318	16:59:39	1	1	incompatibletest1	7	attributeA	18	18	1	383	6	重阳节	-0.0683668094632347428	-1.7042148499066986922	-0.8862908296849667522	93.5064935064934985576
011318	16:59:39	1	1	incompatibletest1	7	targetAright	19	23	1	584	2	热闹	-0.0661126660494993912	-1.7042148499066986922	-0.8851637579780990972	93.5897435897435912011
011318	16:59:39	1	1	incompatibletest1	7	attributeB	20	23	1	471	5	愚人节	-0.0887470342236252457	-1.7042148499066986922	-0.8964809420651619343	93.6708860759493688874
011318	16:59:39	1	1	incompatibletest1	7	targetBleft	21	18	1	491	3	枯燥	-0.1054964994488329783	-1.7042148499066986922	-0.9048556746777658422	93.75
011318	16:59:39	1	1	incompatibletest2	9	attributeB	1	23	1	410	4	情人节	-0.1054964994488329783	-0.8269723153644777947	-0.4662344074066553934	93.8271604938271508445
011318	16:59:39	1	1	incompatibletest2	9	targetAright	2	23	1	499	4	欢乐	-0.1054964994488329783	-0.6135332190889712933	-0.3595148592689021427	93.9024390243902331576
011318	16:59:39	1	1	incompatibletest2	9	attributeA	3	18	1	441	4	七夕节	-0.1054964994488329783	-0.6441459758295178251	-0.3748212376391754086	93.9759036144578345784
011318	16:59:39	1	1	incompatibletest2	9	targetBleft	4	18	1	602	4	无聊	-0.1054964994488329783	-0.4346422747384396379	-0.270069387093636315	94.0476190476190510026
011318	16:59:39	1	1	incompatibletest2	9	attributeB	5	Ctrl+'Q'	1	460	6	复活节	-0.1054964994488329783	-0.4720383770709209448	-0.2887674382598769407	94.1176470588235218884
