date	time	group	subject	blockcode	blocknum	trialcode	trialnum	response	correct	latency	stimulusnumber1	stimulusitem1	expressions.da	expressions.db	expressions.d	expressions.percentcorrect
011318	17:11:52	1	1	targetcompatiblepractice	1	targetAleft	2	18	1	678	4	欢乐			0	0
011318	17:11:52	1	1	targetcompatiblepractice	1	targetBright	3	23	1	458	5	过时			0	0
011318	17:11:52	1	1	targetcompatiblepractice	1	targetAleft	4	18	1	542	1	温馨			0	0
011318	17:11:52	1	1	targetcompatiblepractice	1	targetAleft	5	18	1	378	5	悠闲			0	0
011318	17:11:52	1	1	targetcompatiblepractice	1	targetBright	6	23	1	401	6	忙碌			0	0
011318	17:11:52	1	1	targetcompatiblepractice	1	targetAleft	7	18	1	445	3	浪漫			0	0
011318	17:11:52	1	1	targetcompatiblepractice	1	targetBright	8	23	1	604	4	无聊			0	0
011318	17:11:52	1	1	targetcompatiblepractice	1	targetBright	9	23	1	426	2	乏味			0	0
011318	17:11:52	1	1	targetcompatiblepractice	1	targetAleft	10	18	1	470	6	时尚			0	0
011318	17:11:52	1	1	targetcompatiblepractice	1	targetBright	11	23	1	472	3	枯燥			0	0
011318	17:11:52	1	1	targetcompatiblepractice	1	targetAleft	12	18	1	522	2	热闹			0	0
011318	17:11:52	1	1	targetcompatiblepractice	1	targetBright	13	23	1	559	1	平淡			0	0
011318	17:11:52	1	1	targetcompatiblepractice	1	targetBright	14	23	1	300	5	过时			0	0
011318	17:11:52	1	1	targetcompatiblepractice	1	targetAleft	15	18	1	446	4	欢乐			0	0
011318	17:11:52	1	1	targetcompatiblepractice	1	targetBright	16	23	1	342	2	乏味			0	0
011318	17:11:52	1	1	targetcompatiblepractice	1	targetBright	17	23	1	440	4	无聊			0	0
011318	17:11:52	1	1	targetcompatiblepractice	1	targetAleft	18	18	1	395	2	热闹			0	0
011318	17:11:52	1	1	targetcompatiblepractice	1	targetAleft	19	18	1	419	6	时尚			0	0
011318	17:11:52	1	1	targetcompatiblepractice	1	targetBright	20	23	1	464	6	忙碌			0	0
011318	17:11:52	1	1	targetcompatiblepractice	1	targetAleft	21	18	1	514	5	悠闲			0	0
011318	17:11:52	1	1	attributepractice	2	attributeB	2	23	1	510	5	愚人节			0	0
011318	17:11:52	1	1	attributepractice	2	attributeB	3	23	1	316	2	圣诞节			0	0
011318	17:11:52	1	1	attributepractice	2	attributeA	4	18	1	609	4	七夕节			0	0
011318	17:11:52	1	1	attributepractice	2	attributeB	5	23	1	520	6	复活节			0	0
011318	17:11:52	1	1	attributepractice	2	attributeB	6	23	1	573	3	万圣节			0	0
011318	17:11:52	1	1	attributepractice	2	attributeA	7	18	1	515	6	重阳节			0	0
011318	17:11:52	1	1	attributepractice	2	attributeA	8	18	1	600	5	中秋节			0	0
011318	17:11:52	1	1	attributepractice	2	attributeB	9	23	1	531	1	感恩节			0	0
011318	17:11:52	1	1	attributepractice	2	attributeB	10	23	1	552	4	情人节			0	0
011318	17:11:52	1	1	attributepractice	2	attributeA	11	18	1	391	1	春节			0	0
011318	17:11:52	1	1	attributepractice	2	attributeB	12	23	0	1254	6	复活节			0	0
011318	17:11:52	1	1	attributepractice	2	attributeA	13	18	1	531	2	清明节			0	0
011318	17:11:52	1	1	attributepractice	2	attributeA	14	18	1	684	3	端午节			0	0
011318	17:11:52	1	1	attributepractice	2	attributeA	15	18	1	401	1	春节			0	0
011318	17:11:52	1	1	attributepractice	2	attributeB	16	23	1	627	3	万圣节			0	0
011318	17:11:52	1	1	attributepractice	2	attributeB	17	23	1	444	2	圣诞节			0	0
011318	17:11:52	1	1	attributepractice	2	attributeB	18	23	1	507	5	愚人节			0	0
011318	17:11:52	1	1	attributepractice	2	attributeA	19	18	1	618	4	七夕节			0	0
011318	17:11:52	1	1	attributepractice	2	attributeA	20	18	1	377	6	重阳节			0	0
011318	17:11:52	1	1	attributepractice	2	attributeA	21	18	1	537	5	中秋节			0	0
011318	17:11:52	1	1	compatibletest1	3	attributeB	2	23	1	535	1	感恩节			0	100
011318	17:11:52	1	1	compatibletest1	3	targetAleft	3	18	1	515	3	浪漫	-1.4131884912500056739		-0.706594245625002837	100
011318	17:11:52	1	1	compatibletest1	3	attributeA	4	18	1	657	3	端午节	-1.5946549412008814706		-0.7973274706004407353	100
011318	17:11:52	1	1	compatibletest1	3	targetBright	5	23	1	530	1	平淡	-1.6972514905375346572		-0.8486257452687673286	100
011318	17:11:52	1	1	compatibletest1	3	attributeB	6	23	1	690	4	情人节	-1.7357100674745578051		-0.8678550337372789025	100
011318	17:11:52	1	1	compatibletest1	3	targetBright	7	23	1	561	3	枯燥	-1.7787645072892226406		-0.8893822536446113203	100
011318	17:11:52	1	1	compatibletest1	3	attributeB	8	23	1	608	1	感恩节	-1.8102130412972818885		-0.9051065206486409442	100
011318	17:11:52	1	1	compatibletest1	3	targetBright	9	23	1	524	6	忙碌	-1.82880035620308945		-0.914400178101544725	100
011318	17:11:52	1	1	compatibletest1	3	attributeA	10	18	1	406	2	清明节	-1.8132177257901578304		-0.9066088628950789152	100
011318	17:11:52	1	1	compatibletest1	3	targetAleft	11	18	1	528	1	温馨	-1.8298168320334242676		-0.9149084160167121338	100
011318	17:11:52	1	1	compatibletest1	3	attributeA	12	18	1	216	3	端午节	-1.7299717690205880238		-0.8649858845102940119	100
011318	17:11:52	1	1	compatibletest1	3	targetAleft	13	18	1	377	5	悠闲	-1.7251338311324093677		-0.8625669155662046839	100
011318	17:11:52	1	1	compatibletest1	3	attributeB	14	23	1	559	3	万圣节	-1.7442954980958003119		-0.872147749047900156	100
011318	17:11:52	1	1	compatibletest1	3	targetAleft	15	18	1	282	3	浪漫	-1.7101415707059919313		-0.8550707853529959657	100
011318	17:11:52	1	1	compatibletest1	3	attributeA	16	18	1	500	4	七夕节	-1.7268418606697006901		-0.863420930334850345	100
011318	17:11:52	1	1	compatibletest1	3	targetBright	17	23	1	516	1	平淡	-1.7421923922329127787		-0.8710961961164563894	100
011318	17:11:52	1	1	compatibletest1	3	attributeA	18	18	1	599	1	春节	-1.7530552136477735026		-0.8765276068238867513	100
011318	17:11:52	1	1	compatibletest1	3	targetBright	19	23	1	455	3	枯燥	-1.7618131415644411319		-0.880906570782220566	100
011318	17:11:52	1	1	compatibletest1	3	attributeB	20	23	1	527	4	情人节	-1.7733027236249054859		-0.8866513618124527429	100
011318	17:11:52	1	1	compatibletest1	3	targetAleft	21	18	1	525	1	温馨	-1.7837233127038003566		-0.8918616563519001783	100
011318	17:11:52	1	1	compatibletest2	5	attributeA	1	18	1	307	2	清明节	-1.7837233127038003566		-0.8918616563519001783	100
011318	17:11:52	1	1	compatibletest2	5	targetBright	2	23	1	582	4	无聊	-1.7837233127038003566	-1.2026582722137961756	-1.4931907924587983771	100
011318	17:11:52	1	1	compatibletest2	5	attributeA	3	18	1	532	6	重阳节	-1.7837233127038003566	-1.4576541306333037351	-1.6206887216685519348	100
011318	17:11:52	1	1	compatibletest2	5	targetBright	4	23	1	567	2	乏味	-1.7837233127038003566	-1.5810102895616171548	-1.6823668011327086447	100
011318	17:11:52	1	1	compatibletest2	5	attributeB	5	23	1	497	5	愚人节	-1.7837233127038003566	-1.6607978494178119444	-1.7222605810608060395	100
011318	17:11:52	1	1	compatibletest2	5	targetAleft	6	18	1	535	4	欢乐	-1.7837233127038003566	-1.7150168233023939113	-1.749370068003097245	100
011318	17:11:52	1	1	compatibletest2	5	attributeA	7	18	1	566	5	中秋节	-1.7837233127038003566	-1.7514961553649066595	-1.767609734034353508	100
011318	17:11:52	1	1	compatibletest2	5	targetAleft	8	18	1	410	6	时尚	-1.7837233127038003566	-1.7625804202347581384	-1.7731518664692793585	100
011318	17:11:52	1	1	compatibletest2	5	attributeB	9	23	1	533	6	复活节	-1.7837233127038003566	-1.7876357975398871059	-1.7856795551218436202	100
011318	17:11:52	1	1	compatibletest2	5	targetBright	10	23	1	408	5	过时	-1.7837233127038003566	-1.7938812217260411419	-1.7888022672149208603	100
011318	17:11:52	1	1	compatibletest2	5	attributeA	11	18	1	621	4	七夕节	-1.7837233127038003566	-1.7986582474529382303	-1.7911907800783692934	100
011318	17:11:52	1	1	compatibletest2	5	targetBright	12	23	1	484	4	无聊	-1.7837233127038003566	-1.8134010308648769172	-1.7985621717843387479	100
011318	17:11:52	1	1	compatibletest2	5	attributeB	13	23	1	627	2	圣诞节	-1.7837233127038003566	-1.8167050031530209697	-1.8002141579284107742	100
011318	17:11:52	1	1	compatibletest2	5	targetAleft	14	18	1	428	2	热闹	-1.7837233127038003566	-1.8207740717822702425	-1.8022486922430354106	100
011318	17:11:52	1	1	compatibletest2	5	attributeB	15	23	1	412	3	万圣节	-1.7837233127038003566	-1.8223622737647244829	-1.8030427932342623087	100
011318	17:11:52	1	1	compatibletest2	5	targetBright	16	23	1	436	2	乏味	-1.7837233127038003566	-1.8279649541001730118	-1.8058441334019867952	100
011318	17:11:52	1	1	compatibletest2	5	attributeB	17	23	1	535	4	情人节	-1.7837233127038003566	-1.8372170283545365965	-1.8104701705291685876	100
011318	17:11:52	1	1	compatibletest2	5	targetAleft	18	18	1	518	4	欢乐	-1.7837233127038003566	-1.8458427500773479935	-1.814783031390574175	100
011318	17:11:52	1	1	compatibletest2	5	attributeB	19	23	1	571	6	复活节	-1.7837233127038003566	-1.8514344136680567221	-1.8175788631859286504	100
011318	17:11:52	1	1	compatibletest2	5	targetBright	20	23	1	709	5	过时	-1.7837233127038003566	-1.8365584928893032846	-1.8101409027965518206	100
011318	17:11:52	1	1	compatibletest2	5	attributeA	21	18	1	559	2	清明节	-1.7837233127038003566	-1.8434828683010684447	-1.8136030905024345117	100
011318	17:11:52	1	1	compatibletest2	5	targetAleft	22	18	1	637	1	温馨	-1.7837233127038003566	-1.844413456024535547	-1.8140683843641678408	100
011318	17:11:52	1	1	compatibletest2	5	attributeB	23	23	1	492	1	感恩节	-1.7837233127038003566	-1.849790674639601562	-1.8167569936717009593	100
011318	17:11:52	1	1	compatibletest2	5	targetAleft	24	18	1	478	2	热闹	-1.7837233127038003566	-1.8541071149338017587	-1.8189152138188009467	100
011318	17:11:52	1	1	compatibletest2	5	attributeA	25	18	1	511	1	春节	-1.7837233127038003566	-1.8594269209052773917	-1.8215751168045388741	100
011318	17:11:52	1	1	compatibletest2	5	targetAleft	26	18	1	535	5	悠闲	-1.7837233127038003566	-1.8645839800520183083	-1.8241536463779093324	100
011318	17:11:52	1	1	compatibletest2	5	attributeA	27	18	0	1064	5	中秋节	-1.7837233127038003566	-1.7619587730715569052	-1.7728410428876786309	97.8723404255319167078
011318	17:11:52	1	1	compatibletest2	5	targetAleft	28	18	1	431	3	浪漫	-1.7837233127038003566	-1.7629017487316420709	-1.7733125307177211027	97.9166666666666571928
011318	17:11:52	1	1	compatibletest2	5	attributeB	29	23	0	1065	2	圣诞节	-1.7837233127038003566	-1.6978611747603138404	-1.7407922437320570985	95.9183673469387656496
011318	17:11:52	1	1	compatibletest2	5	targetBright	30	23	1	655	6	忙碌	-1.7837233127038003566	-1.705900681072038072	-1.7448119968879192143	96
011318	17:11:52	1	1	compatibletest2	5	attributeB	31	23	1	591	5	愚人节	-1.7837233127038003566	-1.7142127943444207538	-1.7489680535241105552	96.0784313725490193292
011318	17:11:52	1	1	compatibletest2	5	targetBright	32	23	1	507	3	枯燥	-1.7837233127038003566	-1.7197721385761568502	-1.7517477256399787144	96.153846153846160405
011318	17:11:52	1	1	compatibletest2	5	attributeA	33	18	1	288	3	端午节	-1.7837233127038003566	-1.7026740528083543769	-1.7431986827560774778	96.2264150943396288085
011318	17:11:52	1	1	compatibletest2	5	targetAleft	34	18	1	489	6	时尚	-1.7837233127038003566	-1.707612361791352118	-1.7456678372475762373	96.2962962962962905067
011318	17:11:52	1	1	compatibletest2	5	attributeB	35	23	1	428	4	情人节	-1.7837233127038003566	-1.7084543408761772021	-1.7460888267899887794	96.3636363636363597607
011318	17:11:52	1	1	compatibletest2	5	targetBright	36	23	1	500	1	平淡	-1.7837233127038003566	-1.7137246431727615192	-1.7487239779382810489	96.4285714285714306016
011318	17:11:52	1	1	compatibletest2	5	attributeA	37	18	1	327	6	重阳节	-1.7837233127038003566	-1.7047505140221879127	-1.7442369133629940237	96.4912280701754383472
011318	17:11:52	1	1	compatibletest2	5	targetBright	38	23	1	640	2	乏味	-1.7837233127038003566	-1.7107840174861472793	-1.747253665094973929	96.5517241379310320326
011318	17:11:52	1	1	compatibletest2	5	attributeA	39	18	1	254	5	中秋节	-1.7837233127038003566	-1.6929464382490035934	-1.738334875476402086	96.6101694915254256557
011318	17:11:52	1	1	compatibletest2	5	targetAleft	40	18	1	591	3	浪漫	-1.7837233127038003566	-1.6995990546892343342	-1.7416611836965172344	96.6666666666666714036
011318	17:11:52	1	1	targetincompatiblepractice	6	targetBleft	2	18	1	304	3	枯燥	-1.7837233127038003566	-1.6995990546892343342	-1.7416611836965172344	96.6666666666666714036
011318	17:11:52	1	1	targetincompatiblepractice	6	targetAright	3	23	1	501	2	热闹	-1.7837233127038003566	-1.6995990546892343342	-1.7416611836965172344	96.6666666666666714036
011318	17:11:52	1	1	targetincompatiblepractice	6	targetBleft	4	18	1	508	5	过时	-1.7837233127038003566	-1.6995990546892343342	-1.7416611836965172344	96.6666666666666714036
011318	17:11:52	1	1	targetincompatiblepractice	6	targetAright	5	23	1	392	6	时尚	-1.7837233127038003566	-1.6995990546892343342	-1.7416611836965172344	96.6666666666666714036
011318	17:11:52	1	1	targetincompatiblepractice	6	targetBleft	6	18	1	389	6	忙碌	-1.7837233127038003566	-1.6995990546892343342	-1.7416611836965172344	96.6666666666666714036
011318	17:11:52	1	1	targetincompatiblepractice	6	targetAright	7	23	1	423	4	欢乐	-1.7837233127038003566	-1.6995990546892343342	-1.7416611836965172344	96.6666666666666714036
011318	17:11:52	1	1	targetincompatiblepractice	6	targetBleft	8	18	1	570	1	平淡	-1.7837233127038003566	-1.6995990546892343342	-1.7416611836965172344	96.6666666666666714036
011318	17:11:52	1	1	targetincompatiblepractice	6	targetAright	9	23	1	566	1	温馨	-1.7837233127038003566	-1.6995990546892343342	-1.7416611836965172344	96.6666666666666714036
011318	17:11:52	1	1	targetincompatiblepractice	6	targetAright	10	23	0	1328	5	悠闲	-1.7837233127038003566	-1.6995990546892343342	-1.7416611836965172344	96.6666666666666714036
011318	17:11:52	1	1	targetincompatiblepractice	6	targetAright	11	23	1	642	2	热闹	-1.7837233127038003566	-1.6995990546892343342	-1.7416611836965172344	96.6666666666666714036
011318	17:11:52	1	1	targetincompatiblepractice	6	targetAright	12	23	1	444	6	时尚	-1.7837233127038003566	-1.6995990546892343342	-1.7416611836965172344	96.6666666666666714036
011318	17:11:52	1	1	targetincompatiblepractice	6	targetBleft	13	18	1	546	4	无聊	-1.7837233127038003566	-1.6995990546892343342	-1.7416611836965172344	96.6666666666666714036
011318	17:11:52	1	1	targetincompatiblepractice	6	targetAright	14	23	1	527	5	悠闲	-1.7837233127038003566	-1.6995990546892343342	-1.7416611836965172344	96.6666666666666714036
011318	17:11:52	1	1	targetincompatiblepractice	6	targetAright	15	23	1	476	4	欢乐	-1.7837233127038003566	-1.6995990546892343342	-1.7416611836965172344	96.6666666666666714036
011318	17:11:52	1	1	targetincompatiblepractice	6	targetBleft	16	18	1	314	2	乏味	-1.7837233127038003566	-1.6995990546892343342	-1.7416611836965172344	96.6666666666666714036
011318	17:11:52	1	1	targetincompatiblepractice	6	targetAright	17	23	1	736	3	浪漫	-1.7837233127038003566	-1.6995990546892343342	-1.7416611836965172344	96.6666666666666714036
011318	17:11:52	1	1	targetincompatiblepractice	6	targetBleft	18	18	1	574	3	枯燥	-1.7837233127038003566	-1.6995990546892343342	-1.7416611836965172344	96.6666666666666714036
011318	17:11:52	1	1	targetincompatiblepractice	6	targetBleft	19	18	1	678	4	无聊	-1.7837233127038003566	-1.6995990546892343342	-1.7416611836965172344	96.6666666666666714036
011318	17:11:52	1	1	targetincompatiblepractice	6	targetBleft	20	18	1	554	5	过时	-1.7837233127038003566	-1.6995990546892343342	-1.7416611836965172344	96.6666666666666714036
011318	17:11:52	1	1	targetincompatiblepractice	6	targetBleft	21	18	1	261	6	忙碌	-1.7837233127038003566	-1.6995990546892343342	-1.7416611836965172344	96.6666666666666714036
011318	17:11:52	1	1	incompatibletest1	7	attributeA	2	18	1	667	6	重阳节	1.1636594180174482105	-1.6995990546892343342	-0.2679698183358930619	96.7213114754098342019
011318	17:11:52	1	1	incompatibletest1	7	targetBleft	3	18	1	510	1	平淡	0.6961529380243566267	-1.6995990546892343342	-0.5017230583324387982	96.774193548387103192
011318	17:11:52	1	1	incompatibletest1	7	attributeB	4	23	1	504	2	圣诞节	0.4837410389778824538	-1.6995990546892343342	-0.6079290078556759402	96.8253968253968224644
011318	17:11:52	1	1	incompatibletest1	7	targetAright	5	23	1	504	1	温馨	0.3708350865189850021	-1.6995990546892343342	-0.6643819840851246106	96.875
011318	17:11:52	1	1	incompatibletest1	7	attributeA	6	18	1	585	2	清明节	0.4461097915010036608	-1.6995990546892343342	-0.626744631594115309	96.9230769230769197975
011318	17:11:52	1	1	incompatibletest1	7	targetAright	7	23	1	504	1	温馨	0.378501772829319294	-1.6995990546892343342	-0.6605486409299574646	96.9696969696969688357
011318	17:11:52	1	1	incompatibletest1	7	attributeA	8	18	1	348	1	春节	0.1100445820630886057	-1.6995990546892343342	-0.7947772363130728435	97.0149253731343321761
011318	17:11:52	1	1	incompatibletest1	7	targetBleft	9	18	1	434	4	无聊	0.0139842678580872643	-1.6995990546892343342	-0.8428073934155735358	97.0588235294117680496
011318	17:11:52	1	1	incompatibletest1	7	attributeB	10	23	1	581	5	愚人节	0.0914902314762635754	-1.6995990546892343342	-0.8040544116064853863	97.1014492753623130739
011318	17:11:52	1	1	incompatibletest1	7	targetAright	11	23	1	622	4	欢乐	0.1915621524234600859	-1.6995990546892343342	-0.7540184511328871242	97.1428571428571387969
011318	17:11:52	1	1	incompatibletest1	7	attributeA	12	18	1	416	4	七夕节	0.0981262770801845791	-1.6995990546892343342	-0.8007363888045249123	97.1830985915492959748
011318	17:11:52	1	1	incompatibletest1	7	targetAright	13	23	1	583	5	悠闲	0.1521276727430668496	-1.6995990546892343342	-0.7737356909730837007	97.2222222222222143273
011318	17:11:52	1	1	incompatibletest1	7	attributeB	14	23	1	509	1	感恩节	0.1452813434570014994	-1.6995990546892343342	-0.7771588556161164174	97.2602739726027465395
011318	17:11:52	1	1	incompatibletest1	7	targetBleft	15	18	1	533	2	乏味	0.1561672312024257325	-1.6995990546892343342	-0.7717159117434042592	97.2972972972973053629
011318	17:11:52	1	1	incompatibletest1	7	attributeB	16	23	1	625	3	万圣节	0.2232284797535865895	-1.6995990546892343342	-0.7381852874678238585	97.3333333333333428072
011318	17:11:52	1	1	incompatibletest1	7	targetBleft	17	18	1	343	5	过时	0.1073332757614875593	-1.6995990546892343342	-0.7961328894638733944	97.3684210526315752077
011318	17:11:52	1	1	incompatibletest1	7	attributeB	18	23	1	309	6	复活节	-0.0089434358299926471	-1.6995990546892343342	-0.8542712452596135098	97.4025974025974079495
011318	17:11:52	1	1	incompatibletest1	7	targetAright	19	23	1	363	2	热闹	-0.0806688912931740054	-1.6995990546892343342	-0.8901339729912041143	97.4358974358974307961
011318	17:11:52	1	1	incompatibletest1	7	attributeA	20	18	1	678	3	端午节	0.0063614174941629504	-1.6995990546892343342	-0.8466188185975357383	97.468354430379747555
011318	17:11:52	1	1	incompatibletest1	7	targetBleft	21	18	1	608	6	忙碌	0.0520512355448634334	-1.6995990546892343342	-0.8237739095721854365	97.5
011318	17:11:52	1	1	incompatibletest2	9	attributeA	1	18	1	595	1	春节	0.0520512355448634334	0.3856128925843071986	0.2188320640645853299	97.5308641975308603378
011318	17:11:52	1	1	incompatibletest2	9	targetBleft	2	18	1	498	3	枯燥	0.0520512355448634334	0.0863875920930691071	0.0692194138189662633	97.5609756097560989474
011318	17:11:52	1	1	incompatibletest2	9	attributeB	3	23	1	666	6	复活节	0.0520512355448634334	0.3390173277603358293	0.1955342816525996175	97.5903614457831309892
011318	17:11:52	1	1	incompatibletest2	9	targetAright	4	23	1	392	3	浪漫	0.0520512355448634334	0.0305805807070943653	0.0413159081259788993	97.619047619047620401
011318	17:11:52	1	1	incompatibletest2	9	attributeB	5	23	1	636	2	圣诞节	0.0520512355448634334	0.1578293538409120123	0.1049402946928877228	97.6470588235294059132
011318	17:11:52	1	1	incompatibletest2	9	targetBleft	6	18	1	592	1	平淡	0.0520512355448634334	0.1968899119779355666	0.1244705737613995	97.6744186046511515542
011318	17:11:52	1	1	incompatibletest2	9	attributeA	7	18	1	541	2	清明节	0.0520512355448634334	0.178293977495930428	0.1151726065203969307	97.7011494252873546884
011318	17:11:52	1	1	incompatibletest2	9	targetAright	8	23	0	1015	6	时尚	0.0520512355448634334	0.5020310623133116268	0.277041148929087544	96.5909090909090934929
011318	17:11:52	1	1	incompatibletest2	9	attributeA	9	18	1	708	4	七夕节	0.0520512355448634334	0.5619445833513903032	0.3069979094481268822	96.6292134831460742816
011318	17:11:52	1	1	incompatibletest2	9	targetBleft	10	18	1	584	2	乏味	0.0520512355448634334	0.5430100311801504542	0.2975306333625069577	96.6666666666666714036
011318	17:11:52	1	1	incompatibletest2	9	attributeB	11	23	0	1018	1	感恩节	0.0520512355448634334	0.7067962518972008557	0.3794237437210321584	95.6043956043956058011
011318	17:11:52	1	1	incompatibletest2	9	targetBleft	12	18	1	592	4	无聊	0.0520512355448634334	0.6843875343160998881	0.3682193849304816746	95.6521739130434838216
011318	17:11:52	1	1	incompatibletest2	9	attributeB	13	23	1	505	4	情人节	0.0520512355448634334	0.6276495043536931551	0.3398503699492783081	95.698924731182799519
011318	17:11:52	1	1	incompatibletest2	9	targetAright	14	23	1	554	6	时尚	0.0520512355448634334	0.5986304194416460778	0.3253408274932547695	95.7446808510638334155
011318	17:11:52	1	1	incompatibletest2	9	attributeB	15	23	1	500	5	愚人节	0.0520512355448634334	0.551802831222039325	0.3019270333834513931	95.7894736842105203323
011318	17:11:52	1	1	incompatibletest2	9	targetBleft	16	18	1	564	3	枯燥	0.0520512355448634334	0.534353334743923214	0.2932022851443933376	95.8333333333333428072
011318	17:11:52	1	1	incompatibletest2	9	attributeA	17	18	1	395	6	重阳节	0.0520512355448634334	0.4557509926924064314	0.2539011141186349185	95.8762886597938148725
011318	17:11:52	1	1	incompatibletest2	9	targetBleft	18	18	1	563	1	平淡	0.0520512355448634334	0.4446248547484510372	0.2483380451466572492	95.9183673469387656496
011318	17:11:52	1	1	incompatibletest2	9	attributeA	19	18	0	869	3	端午节	0.0520512355448634334	0.5165317640324313953	0.2842914997886474282	94.9494949494949480595
011318	17:11:52	1	1	incompatibletest2	9	targetAright	20	23	1	513	2	热闹	0.0520512355448634334	0.4890692266758361328	0.2705602311103497692	95
011318	17:11:52	1	1	incompatibletest2	9	attributeB	21	23	1	326	3	万圣节	0.0520512355448634334	0.4044104998122354799	0.2282308676785494428	95.0495049504950486607
011318	17:11:52	1	1	incompatibletest2	9	targetBleft	22	18	1	546	6	忙碌	0.0520512355448634334	0.3928936451098515303	0.222472440327357468	95.0980392156862706088
011318	17:11:52	1	1	incompatibletest2	9	attributeB	23	23	1	399	3	万圣节	0.0520512355448634334	0.3415308265842788571	0.1967910310645711314	95.1456310679611618752
011318	17:11:52	1	1	incompatibletest2	9	targetBleft	24	18	1	520	5	过时	0.0520512355448634334	0.326629620654957098	0.1893404280999102518	95.1923076923076934008
011318	17:11:52	1	1	incompatibletest2	9	attributeA	25	18	1	591	5	中秋节	0.0520512355448634334	0.3300572152800421155	0.1910542254124527606	95.2380952380952265912
011318	17:11:52	1	1	incompatibletest2	9	targetAright	26	23	0	941	4	欢乐	0.0520512355448634334	0.3992254356277714633	0.2256383355863174622	94.3396226415094361073
011318	17:11:52	1	1	incompatibletest2	9	attributeB	27	23	1	425	4	情人节	0.0520512355448634334	0.3620629101792550708	0.207057072862059266	94.392523364485981574
011318	17:11:52	1	1	incompatibletest2	9	targetAright	28	23	1	506	1	温馨	0.0520512355448634334	0.3458477865576259358	0.1989495110512446985	94.4444444444444428655
011318	17:11:52	1	1	incompatibletest2	9	attributeA	29	18	1	308	3	端午节	0.0520512355448634334	0.2854682435785144134	0.1687597395616889373	94.4954128440366929453
011318	17:11:52	1	1	incompatibletest2	9	targetBleft	30	18	1	580	3	枯燥	0.0520512355448634334	0.28723590256990994	0.1696435690573867006	94.5454545454545467464
011318	17:11:52	1	1	incompatibletest2	9	attributeB	31	23	1	433	2	圣诞节	0.0520512355448634334	0.2597633482182153397	0.1559072918815394004	94.594594594594596515
011318	17:11:52	1	1	incompatibletest2	9	targetAright	32	23	1	489	3	浪漫	0.0520512355448634334	0.2449563695826685317	0.1485038025637659964	94.6428571428571387969
011318	17:11:52	1	1	incompatibletest2	9	attributeA	33	18	1	436	5	中秋节	0.0520512355448634334	0.2207404657611462262	0.1363958506530048298	94.6902654867256643456
011318	17:11:52	1	1	incompatibletest2	9	targetAright	34	23	1	562	5	悠闲	0.0520512355448634334	0.2208920710356596373	0.1364716532902615354	94.7368421052631504153
011318	17:11:52	1	1	incompatibletest2	9	attributeA	35	18	1	478	2	清明节	0.0520512355448634334	0.2062033128079584221	0.1291272741764109278	94.7826086956521720595
011318	17:11:52	1	1	incompatibletest2	9	targetAright	36	23	1	758	5	悠闲	0.0520512355448634334	0.2375896499172304721	0.1448204427310469389	94.8275862068965551543
011318	17:11:52	1	1	incompatibletest2	9	attributeB	37	23	1	641	5	愚人节	0.0520512355448634334	0.2500464825110325084	0.151048859027947957	94.8717948717948615922
011318	17:11:52	1	1	incompatibletest2	9	targetAright	38	23	1	603	3	浪漫	0.0520512355448634334	0.2562089190038104869	0.154130077274336974	94.9152542372881384836
011318	17:11:52	1	1	incompatibletest2	9	attributeA	39	18	1	582	6	重阳节	0.0520512355448634334	0.2589579795083050695	0.1555046075265842376	94.9579831932773004155
011318	17:11:52	1	1	incompatibletest2	9	targetBleft	40	18	1	497	4	无聊	0.0520512355448634334	0.2483173172284350305	0.1501842763866492181	95
